File: data/data.csv
2theta,intensity
10.0,1014.0
10.06,993.0
10.12,962.0
10.18,1053.0
10.24,1027.0
10.3,1087.0
10.36,1009.0
10.42,1031.0
10.48,1013.0
10.54,1011.0
10.6,957.0
10.66,1033.0
10.72,964.0
10.78,1036.0
10.84,973.0
10.9,936.0
10.96,970.0
11.02,948.0
11.08,942.0
11.14,982.0
11.2,935.0
11.26,918.0
11.32,943.0
11.38,903.0
11.44,963.0
11.5,947.0
11.56,929.0
11.62,912.0
11.68,923.0
11.74,929.0
11.8,951.0
11.86,950.0
11.92,869.0
11.98,838.0
12.04,903.0
12.1,915.0
12.16,927.0
12.22,833.0
12.28,842.0
12.34,851.0
12.4,891.0
12.46,866.0
12.52,894.0
12.58,878.0
12.64,865.0
12.7,818.0
12.76,846.0
12.82,846.0
12.88,817.0
12.94,854.0
13.0,836.0
13.06,831.0
13.12,824.0
13.18,780.0
13.24,871.0
13.3,820.0
13.36,847.0
13.42,813.0
13.48,779.0
13.54,771.0
13.6,817.0
13.66,785.0
13.72,760.0
13.78,792.0
13.84,764.0
13.9,835.0
13.96,807.0
14.02,818.0
14.08,746.0
14.14,808.0
14.2,829.0
14.26,931.0
14.32,894.0
14.38,948.0
14.44,1165.0
14.5,1263.0
14.56,1447.0
14.62,1865.0
14.68,2347.0
14.74,2983.0
14.8,3925.0
14.86,3656.0
14.92,1854.0
14.98,1251.0
15.04,979.0
15.1,830.0
15.16,810.0
15.22,748.0
15.28,720.0
15.34,689.0
15.4,680.0
15.46,693.0
15.52,687.0
15.58,699.0
15.64,721.0
15.7,680.0
15.76,705.0
15.82,704.0
15.88,664.0
15.94,671.0
16.0,693.0
16.06,644.0
16.12,666.0
16.18,675.0
16.24,650.0
16.3,615.0
16.36,620.0
16.42,600.0
16.48,633.0
16.54,636.0
16.6,592.0
16.66,648.0
16.72,634.0
16.78,654.0
16.84,618.0
16.9,665.0
16.96,622.0
17.02,620.0
17.08,609.0
17.14,652.0
17.2,574.0
17.26,639.0
17.32,582.0
17.38,589.0
17.44,578.0
17.5,587.0
17.56,592.0
17.62,592.0
17.68,585.0
17.74,577.0
17.8,585.0
17.86,562.0
17.92,590.0
17.98,595.0
18.04,572.0
18.1,534.0
18.16,518.0
18.22,565.0
18.28,549.0
18.34,586.0
18.4,525.0
18.46,577.0
18.52,554.0
18.58,539.0
18.64,517.0
18.7,509.0
18.76,543.0
18.82,520.0
18.88,536.0
18.94,510.0
19.0,496.0
19.06,492.0
19.12,553.0
19.18,494.0
19.24,496.0
19.3,514.0
19.36,494.0
19.42,485.0
19.48,506.0
19.54,463.0
19.6,514.0
19.66,494.0
19.72,509.0
19.78,507.0
19.84,520.0
19.9,526.0
19.96,515.0
20.02,495.0
20.08,497.0
20.14,492.0
20.2,477.0
20.26,478.0
20.32,504.0
20.38,494.0
20.44,504.0
20.5,466.0
20.56,446.0
20.62,456.0
20.68,481.0
20.74,462.0
20.8,481.0
20.86,473.0
20.92,491.0
20.98,454.0
21.04,462.0
21.1,431.0
21.16,427.0
21.22,498.0
21.28,480.0
21.34,470.0
21.4,478.0
21.46,533.0
21.52,556.0
21.58,588.0
21.64,702.0
21.7,595.0
21.76,536.0
21.82,487.0
21.88,468.0
21.94,486.0
22.0,426.0
22.06,445.0
22.12,439.0
22.18,495.0
22.24,491.0
22.3,447.0
22.36,452.0
22.42,423.0
22.48,422.0
22.54,446.0
22.6,421.0
22.66,417.0
22.72,440.0
22.78,467.0
22.84,454.0
22.9,421.0
22.96,413.0
23.02,417.0
23.08,425.0
23.14,462.0
23.2,411.0
23.26,442.0
23.32,407.0
23.38,467.0
23.44,437.0
23.5,471.0
23.56,515.0
23.62,487.0
23.68,526.0
23.74,569.0
23.8,665.0
23.86,761.0
23.92,1029.0
23.98,1342.0
24.04,1914.0
24.1,2698.0
24.16,3913.0
24.22,5163.0
24.28,5507.0
24.34,4034.0
24.4,2410.0
24.46,1373.0
24.52,1012.0
24.58,759.0
24.64,623.0
24.7,543.0
24.76,561.0
24.82,497.0
24.88,475.0
24.94,457.0
25.0,453.0
25.06,400.0
25.12,444.0
25.18,404.0
25.24,424.0
25.3,440.0
25.36,404.0
25.42,403.0
25.48,451.0
25.54,403.0
25.6,385.0
25.66,441.0
25.72,376.0
25.78,396.0
25.84,397.0
25.9,366.0
25.96,385.0
26.02,368.0
26.08,373.0
26.14,375.0
26.2,364.0
26.26,389.0
26.32,377.0
26.38,364.0
26.44,366.0
26.5,333.0
26.56,352.0
26.62,349.0
26.68,366.0
26.74,381.0
26.8,403.0
26.86,386.0
26.92,350.0
26.98,351.0
27.04,340.0
27.1,335.0
27.16,346.0
27.22,359.0
27.28,325.0
27.34,347.0
27.4,320.0
27.46,333.0
27.52,321.0
27.58,358.0
27.64,354.0
27.7,366.0
27.76,335.0
27.82,316.0
27.88,362.0
27.94,403.0
28.0,367.0
28.06,407.0
28.12,448.0
28.18,517.0
28.24,583.0
28.3,752.0
28.36,927.0
28.42,1236.0
28.48,1509.0
28.54,1444.0
28.6,1170.0
28.66,877.0
28.72,606.0
28.78,534.0
28.84,473.0
28.9,434.0
28.96,382.0
29.02,378.0
29.08,411.0
29.14,364.0
29.2,354.0
29.26,360.0
29.32,388.0
29.38,428.0
29.44,468.0
29.5,562.0
29.56,719.0
29.62,943.0
29.68,1278.0
29.74,1676.0
29.8,2063.0
29.86,1845.0
29.92,1347.0
29.98,819.0
30.04,657.0
30.1,491.0
30.16,438.0
30.22,372.0
30.28,366.0
30.34,348.0
30.4,365.0
30.46,367.0
30.52,416.0
30.58,491.0
30.64,586.0
30.7,810.0
30.76,859.0
30.82,648.0
30.88,522.0
30.94,362.0
31.0,330.0
31.06,299.0
31.12,318.0
31.18,296.0
31.24,296.0
31.3,269.0
31.36,277.0
31.42,298.0
31.48,285.0
31.54,288.0
31.6,302.0
31.66,310.0
31.72,309.0
31.78,295.0
31.84,315.0
31.9,269.0
31.96,307.0
32.02,280.0
32.08,245.0
32.14,295.0
32.2,253.0
32.26,265.0
32.32,264.0
32.38,279.0
32.44,258.0
32.5,257.0
32.56,274.0
32.62,300.0
32.68,277.0
32.74,264.0
32.8,254.0
32.86,268.0
32.92,265.0
32.98,284.0
33.04,289.0
33.1,268.0
33.16,269.0
33.22,282.0
33.28,279.0
33.34,279.0
33.4,281.0
33.46,290.0
33.52,273.0
33.58,316.0
33.64,303.0
33.7,302.0
33.76,341.0
33.82,302.0
33.88,362.0
33.94,342.0
34.0,401.0
34.06,460.0
34.12,556.0
34.18,646.0
34.24,833.0
34.3,1070.0
34.36,1438.0
34.42,1955.0
34.48,2377.0
34.54,2617.0
34.6,2364.0
34.66,1764.0
34.72,1285.0
34.78,968.0
34.84,732.0
34.9,558.0
34.96,474.0
35.02,393.0
35.08,362.0
35.14,336.0
35.2,346.0
35.26,313.0
35.32,321.0
35.38,286.0
35.44,294.0
35.5,270.0
35.56,287.0
35.62,263.0
35.68,264.0
35.74,261.0
35.8,278.0
35.86,278.0
35.92,250.0
35.98,243.0
36.04,247.0
36.1,247.0
36.16,206.0
36.22,231.0
36.28,276.0
36.34,235.0
36.4,249.0
36.46,233.0
36.52,238.0
36.58,236.0
36.64,250.0
36.7,208.0
36.76,227.0
36.82,232.0
36.88,228.0
36.94,211.0
37.0,239.0
37.06,235.0
37.12,236.0
37.18,249.0
37.24,246.0
37.3,245.0
37.36,276.0
37.42,327.0
37.48,302.0
37.54,350.0
37.6,489.0
37.66,597.0
37.72,587.0
37.78,628.0
37.84,541.0
37.9,504.0
37.96,395.0
38.02,317.0
38.08,287.0
38.14,274.0
38.2,245.0
38.26,264.0
38.32,258.0
38.38,266.0
38.44,227.0
38.5,197.0
38.56,227.0
38.62,263.0
38.68,240.0
38.74,277.0
38.8,194.0
38.86,232.0
38.92,234.0
38.98,225.0
39.04,232.0
39.1,214.0
39.16,242.0
39.22,212.0
39.28,187.0
39.34,206.0
39.4,228.0
39.46,223.0
39.52,204.0
39.58,230.0
39.64,225.0
39.7,207.0
39.76,229.0
39.82,229.0
39.88,233.0
39.94,214.0
40.0,205.0
40.06,222.0
40.12,220.0
40.18,240.0
40.24,219.0
40.3,213.0
40.36,212.0
40.42,187.0
40.48,250.0
40.54,226.0
40.6,227.0
40.66,224.0
40.72,209.0
40.78,212.0
40.84,256.0
40.9,218.0
40.96,217.0
41.02,235.0
41.08,219.0
41.14,217.0
41.2,235.0
41.26,237.0
41.32,246.0
41.38,219.0
41.44,233.0
41.5,224.0
41.56,238.0
41.62,248.0
41.68,242.0
41.74,259.0
41.8,254.0
41.86,242.0
41.92,235.0
41.98,291.0
42.04,339.0
42.1,317.0
42.16,365.0
42.22,413.0
42.28,508.0
42.34,653.0
42.4,925.0
42.46,1165.0
42.52,1567.0
42.58,1809.0
42.64,1864.0
42.7,1606.0
42.76,1268.0
42.82,958.0
42.88,727.0
42.94,575.0
43.0,455.0
43.06,396.0
43.12,336.0
43.18,339.0
43.24,279.0
43.3,264.0
43.36,265.0
43.42,253.0
43.48,257.0
43.54,242.0
43.6,250.0
43.66,247.0
43.72,264.0
43.78,278.0
43.84,256.0
43.9,291.0
43.96,316.0
44.02,351.0
44.08,285.0
44.14,296.0
44.2,254.0
44.26,196.0
44.32,238.0
44.38,252.0
44.44,242.0
44.5,225.0
44.56,262.0
44.62,244.0
44.68,251.0
44.74,242.0
44.8,267.0
44.86,300.0
44.92,261.0
44.98,318.0
45.04,403.0
45.1,438.0
45.16,467.0
45.22,577.0
45.28,680.0
45.34,644.0
45.4,628.0
45.46,555.0
45.52,474.0
45.58,394.0
45.64,349.0
45.7,313.0
45.76,281.0
45.82,240.0
45.88,243.0
45.94,218.0
46.0,262.0
46.06,210.0
46.12,216.0
46.18,213.0
46.24,221.0
46.3,226.0
46.36,227.0
46.42,226.0
46.48,215.0
46.54,216.0
46.6,221.0
46.66,209.0
46.72,230.0
46.78,209.0
46.84,225.0
46.9,229.0
46.96,218.0
47.02,199.0
47.08,199.0
47.14,232.0
47.2,195.0
47.26,233.0
47.32,188.0
47.38,194.0
47.44,203.0
47.5,206.0
47.56,207.0
47.62,251.0
47.68,214.0
47.74,199.0
47.8,212.0
47.86,230.0
47.92,230.0
47.98,198.0
48.04,198.0
48.1,235.0
48.16,200.0
48.22,204.0
48.28,209.0
48.34,233.0
48.4,227.0
48.46,231.0
48.52,230.0
48.58,204.0
48.64,222.0
48.7,188.0
48.76,274.0
48.82,271.0
48.88,260.0
48.94,289.0
49.0,300.0
49.06,334.0
49.12,355.0
49.18,401.0
49.24,525.0
49.3,644.0
49.36,776.0
49.42,1050.0
49.48,1304.0
49.54,1617.0
49.6,1669.0
49.66,1532.0
49.72,1304.0
49.78,1037.0
49.84,809.0
49.9,643.0
49.96,494.0
50.02,423.0
50.08,374.0
50.14,327.0
50.2,320.0
50.26,296.0
50.32,304.0
50.38,255.0
50.44,259.0
50.5,257.0
50.56,249.0
50.62,253.0
50.68,232.0
50.74,239.0
50.8,222.0
50.86,256.0
50.92,218.0
50.98,224.0
51.04,220.0
51.1,206.0
51.16,256.0
51.22,219.0
51.28,256.0
51.34,232.0
51.4,258.0
51.46,270.0
51.52,256.0
51.58,298.0
51.64,310.0
51.7,341.0
51.76,392.0
51.82,440.0
51.88,476.0
51.94,574.0
52.0,636.0
52.06,649.0
52.12,557.0
52.18,523.0
52.24,463.0
52.3,395.0
52.36,359.0
52.42,268.0
52.48,260.0
52.54,256.0
52.6,232.0
52.66,261.0
52.72,233.0
52.78,231.0
52.84,215.0
52.9,220.0
52.96,236.0
53.02,220.0
53.08,224.0
53.14,212.0
53.2,183.0
53.26,176.0
53.32,204.0
53.38,214.0
53.44,178.0
53.5,191.0
53.56,175.0
53.62,207.0
53.68,182.0
53.74,204.0
53.8,188.0
53.86,174.0
53.92,204.0
53.98,204.0
54.04,215.0
54.1,193.0
54.16,219.0
54.22,250.0
54.28,216.0
54.34,213.0
54.4,248.0
54.46,301.0
54.52,387.0
54.58,377.0
54.64,336.0
54.7,319.0
54.76,222.0
54.82,241.0
54.88,236.0
54.94,224.0
55.0,218.0
55.06,233.0
55.12,242.0
55.18,229.0
55.24,231.0
55.3,276.0
55.36,272.0
55.42,267.0
55.48,317.0
55.54,362.0
55.6,384.0
55.66,439.0
55.72,492.0
55.78,542.0
55.84,674.0
55.9,729.0
55.96,694.0
56.02,661.0
56.08,549.0
56.14,511.0
56.2,420.0
56.26,371.0
56.32,307.0
56.38,325.0
56.44,221.0
56.5,270.0
56.56,234.0
56.62,237.0
56.68,239.0
56.74,204.0
56.8,216.0
56.86,210.0
56.92,225.0
56.98,216.0
57.04,256.0
57.1,191.0
57.16,195.0
57.22,203.0
57.28,205.0
57.34,202.0
57.4,202.0
57.46,209.0
57.52,225.0
57.58,213.0
57.64,212.0
57.7,214.0
57.76,228.0
57.82,218.0
57.88,235.0
57.94,260.0
58.0,263.0
58.06,294.0
58.12,319.0
58.18,319.0
58.24,307.0
58.3,305.0
58.36,307.0
58.42,272.0
58.48,250.0
58.54,274.0
58.6,272.0
58.66,303.0
58.72,339.0
58.78,366.0
58.84,410.0
58.9,411.0
58.96,410.0
59.02,368.0
59.08,365.0
59.14,309.0
59.2,273.0
59.26,256.0
59.32,243.0
59.38,263.0
59.44,227.0
59.5,207.0
59.56,202.0
59.62,224.0
59.68,210.0
59.74,207.0
59.8,208.0
59.86,201.0
59.92,221.0
59.98,184.0
60.04,201.0
60.1,193.0
60.16,191.0
60.22,211.0
60.28,199.0
60.34,187.0
60.4,192.0
60.46,209.0
60.52,194.0
60.58,209.0
60.64,219.0
60.7,206.0
60.76,185.0
60.82,214.0
60.88,197.0
60.94,208.0
61.0,186.0
61.06,214.0
61.12,215.0
61.18,244.0
61.24,242.0
61.3,243.0
61.36,274.0
61.42,282.0
61.48,333.0
61.54,350.0
61.6,440.0
61.66,460.0
61.72,582.0
61.78,649.0
61.84,601.0
61.9,542.0
61.96,498.0
62.02,414.0
62.08,367.0
62.14,317.0
62.2,293.0
62.26,290.0
62.32,230.0
62.38,211.0
62.44,209.0
62.5,206.0
62.56,223.0
62.62,228.0
62.68,197.0
62.74,222.0
62.8,216.0
62.86,196.0
62.92,190.0
62.98,213.0
63.04,228.0
63.1,208.0
63.16,187.0
63.22,208.0
63.28,218.0
63.34,202.0
63.4,230.0
63.46,258.0
63.52,243.0
63.58,284.0
63.64,280.0
63.7,284.0
63.76,370.0
63.82,387.0
63.88,394.0
63.94,399.0
64.0,367.0
64.06,389.0
64.12,309.0
64.18,293.0
64.24,267.0
64.3,226.0
64.36,227.0
64.42,245.0
64.48,225.0
64.54,221.0
64.6,219.0
64.66,203.0
64.72,216.0
64.78,202.0
64.84,202.0
64.9,186.0
64.96,200.0
65.02,190.0
65.08,193.0
65.14,190.0
65.2,204.0
65.26,196.0
65.32,200.0
65.38,225.0
65.44,193.0
65.5,212.0
65.56,206.0
65.62,192.0
65.68,199.0
65.74,202.0
65.8,213.0
65.86,174.0
65.92,202.0
65.98,218.0
66.04,182.0
66.1,215.0
66.16,200.0
66.22,221.0
66.28,213.0
66.34,197.0
66.4,202.0
66.46,217.0
66.52,204.0
66.58,242.0
66.64,236.0
66.7,265.0
66.76,261.0
66.82,259.0
66.88,304.0
66.94,325.0
67.0,328.0
67.06,412.0
67.12,508.0
67.18,563.0
67.24,610.0
67.3,710.0
67.36,733.0
67.42,630.0
67.48,627.0
67.54,519.0
67.6,508.0
67.66,405.0
67.72,385.0
67.78,343.0
67.84,318.0
67.9,285.0
67.96,285.0
68.02,257.0
68.08,265.0
68.14,257.0
68.2,239.0
68.26,264.0
68.32,221.0
68.38,228.0
68.44,265.0
68.5,247.0
68.56,220.0
68.62,228.0
68.68,228.0
68.74,199.0
68.8,209.0
68.86,208.0
68.92,228.0
68.98,237.0
69.04,257.0
69.1,232.0
69.16,255.0
69.22,252.0
69.28,303.0
69.34,321.0
69.4,308.0
69.46,328.0
69.52,336.0
69.58,289.0
69.64,266.0
69.7,231.0
69.76,229.0
69.82,212.0
69.88,225.0
69.94,205.0
70.0,230.0
70.06,199.0
70.12,196.0
70.18,185.0
70.24,195.0
70.3,184.0
70.36,186.0
70.42,206.0
70.48,191.0
70.54,186.0
70.6,194.0
70.66,185.0
70.72,184.0
70.78,175.0
70.84,175.0
70.9,181.0
70.96,187.0
71.02,186.0
71.08,183.0
71.14,187.0
71.2,157.0
71.26,182.0
71.32,191.0
71.38,188.0
71.44,178.0
71.5,182.0
71.56,162.0
71.62,185.0
71.68,174.0
71.74,207.0
71.8,200.0
71.86,207.0
71.92,206.0
71.98,184.0
72.04,193.0
72.1,207.0
72.16,191.0
72.22,187.0
72.28,219.0
72.34,246.0
72.4,256.0
72.46,304.0
72.52,319.0
72.58,278.0
72.64,312.0
72.7,299.0
72.76,302.0
72.82,305.0
72.88,270.0
72.94,258.0
73.0,240.0
73.06,233.0
73.12,227.0
73.18,207.0
73.24,190.0
73.3,204.0
73.36,160.0
73.42,193.0
73.48,191.0
73.54,201.0
73.6,188.0
73.66,174.0
73.72,183.0
73.78,192.0
73.84,182.0
73.9,162.0
73.96,179.0
74.02,193.0
74.08,185.0
74.14,197.0
74.2,195.0
74.26,201.0
74.32,170.0
74.38,184.0
74.44,206.0
74.5,199.0
74.56,167.0
74.62,182.0
74.68,196.0
74.74,195.0
74.8,178.0
74.86,195.0
74.92,201.0
74.98,176.0
75.04,203.0
75.1,162.0
75.16,188.0
75.22,175.0
75.28,198.0
75.34,197.0
75.4,185.0
75.46,199.0
75.52,186.0
75.58,165.0
75.64,174.0
75.7,166.0
75.76,192.0
75.82,176.0
75.88,163.0
75.94,185.0
76.0,199.0
76.06,173.0
76.12,179.0
76.18,151.0
76.24,201.0
76.3,206.0
76.36,178.0
76.42,182.0
76.48,219.0
76.54,197.0
76.6,182.0
76.66,189.0
76.72,212.0
76.78,199.0
76.84,209.0
76.9,221.0
76.96,211.0
77.02,184.0
77.08,228.0
77.14,208.0
77.2,207.0
77.26,231.0
77.32,227.0
77.38,242.0
77.44,236.0
77.5,248.0
77.56,271.0
77.62,288.0
77.68,292.0
77.74,313.0
77.8,367.0
77.86,342.0
77.92,375.0
77.98,339.0
78.04,337.0
78.1,328.0
78.16,284.0
78.22,297.0
78.28,276.0
78.34,277.0
78.4,249.0
78.46,213.0
78.52,205.0
78.58,216.0
78.64,210.0
78.7,202.0
78.76,250.0
78.82,200.0
78.88,212.0
78.94,188.0
79.0,199.0
79.06,203.0
79.12,233.0
79.18,185.0
79.24,212.0
79.3,202.0
79.36,203.0
79.42,216.0
79.48,226.0
79.54,238.0
79.6,238.0
79.66,247.0
79.72,268.0
79.78,296.0
79.84,264.0
79.9,241.0
79.96,293.0
80.02,244.0
80.08,242.0
80.14,218.0
80.2,255.0
80.26,248.0
80.32,249.0
80.38,253.0
80.44,268.0
80.5,251.0
80.56,247.0
80.62,237.0
80.68,217.0
80.74,251.0
80.8,239.0
80.86,216.0
80.92,242.0
80.98,246.0
81.04,181.0
81.1,219.0
81.16,204.0
81.22,204.0
81.28,199.0
81.34,208.0
81.4,197.0
81.46,185.0
81.52,185.0
81.58,198.0
81.64,196.0
81.7,198.0
81.76,184.0
81.82,178.0
81.88,212.0
81.94,195.0
82.0,232.0
82.06,206.0
82.12,207.0
82.18,236.0
82.24,210.0
82.3,239.0
82.36,232.0
82.42,234.0
82.48,268.0
82.54,249.0
82.6,282.0
82.66,291.0
82.72,316.0
82.78,308.0
82.84,376.0
82.9,387.0
82.96,413.0
83.02,401.0
83.08,395.0
83.14,371.0
83.2,360.0
83.26,337.0
83.32,348.0
83.38,342.0
83.44,270.0
83.5,284.0
83.56,275.0
83.62,233.0
83.68,274.0
83.74,256.0
83.8,252.0
83.86,249.0
83.92,219.0
83.98,202.0
84.04,222.0
84.1,187.0
84.16,216.0
84.22,206.0
84.28,223.0
84.34,213.0
84.4,215.0
84.46,232.0
84.52,269.0
84.58,233.0
84.64,256.0
84.7,244.0
84.76,261.0
84.82,275.0
84.88,259.0
84.94,259.0
85.0,286.0
85.06,249.0
85.12,254.0
85.18,225.0
85.24,207.0
85.3,212.0
85.36,219.0
85.42,218.0
85.48,198.0
85.54,194.0
85.6,201.0
85.66,202.0
85.72,207.0
85.78,202.0
85.84,203.0
85.9,194.0
85.96,222.0
86.02,209.0
86.08,185.0
86.14,176.0
86.2,184.0
86.26,178.0
86.32,189.0
86.38,178.0
86.44,169.0
86.5,214.0
86.56,189.0
86.62,211.0
86.68,192.0
86.74,174.0
86.8,197.0
86.86,207.0
86.92,215.0
86.98,188.0
87.04,181.0
87.1,198.0
87.16,212.0
87.22,234.0
87.28,230.0
87.34,194.0
87.4,207.0
87.46,205.0
87.52,206.0
87.58,216.0
87.64,220.0
87.7,263.0
87.76,232.0
87.82,246.0
87.88,261.0
87.94,255.0
88.0,292.0
88.06,256.0
88.12,273.0
88.18,283.0
88.24,265.0
88.3,266.0
88.36,274.0
88.42,220.0
88.48,258.0
88.54,234.0
88.6,247.0
88.66,259.0
88.72,259.0
88.78,263.0
88.84,253.0
88.9,234.0
88.96,242.0
89.02,228.0
89.08,214.0
89.14,230.0
89.2,215.0
89.26,224.0
89.32,228.0
89.38,232.0
89.44,195.0
89.5,220.0
89.56,218.0
89.62,220.0
89.68,222.0
89.74,243.0
89.8,269.0
89.86,247.0
89.92,237.0
89.98,240.0
90.0,226.0