File: Bg_sbtracted_data/bgsubtracted.csv
2theta,intensity
10.0,0.0
10.06,0.0
10.12,0.0
10.18,50.5957
10.24,28.4609
10.3,92.3262
10.36,18.1914
10.42,44.0566
10.48,29.9218
10.54,31.7871
10.6,0.0
10.66,61.5175
10.72,0.0
10.78,72.248
10.84,13.1132
10.9,0.0
10.96,17.8437
11.02,0.0
11.08,0.0
11.14,41.4394
11.2,0.0
11.26,0.0
11.32,14.0351
11.38,0.0
11.44,41.7655
11.5,29.6308
11.56,15.496
11.62,2.36123
11.68,17.2265
11.74,27.0917
11.8,52.9569
11.86,55.8222
11.92,0.0
11.98,0.0
12.04,20.4179
12.1,36.2831
12.16,52.1483
12.22,0.0
12.28,0.0
12.34,0.0
12.4,31.6092
12.46,10.4745
12.52,42.3397
12.58,30.2049
12.64,21.0702
12.7,0.0
12.76,9.80062
12.82,13.6659
12.88,0.0
12.94,29.3963
13.0,15.2615
13.06,14.1268
13.12,10.992
13.18,0.0
13.24,65.7225
13.3,18.5877
13.36,49.4529
13.42,19.3182
13.48,0.0
13.54,0.0
13.6,34.9139
13.66,6.77909
13.72,0.0
13.78,20.9395
13.84,0.0
13.9,70.5299
13.96,45.8251
14.02,60.1202
14.08,0.0
14.14,56.7106
14.2,81.0058
14.26,186.301
14.32,152.596
14.38,209.891
14.44,430.187
14.5,531.482
14.56,718.777
14.62,1140.07
14.68,1625.37
14.74,2264.66
14.8,3209.96
14.86,2944.25
14.92,1145.55
14.98,545.843
15.04,277.138
15.1,131.434
15.16,114.729
15.22,56.0239
15.28,31.3191
15.34,3.61431
15.4,0.0
15.46,14.2047
15.52,11.4999
15.58,26.7951
15.64,52.0902
15.7,14.3854
15.76,42.6806
15.82,44.9758
15.88,8.27098
15.94,18.5662
16.0,43.8614
16.06,0.0
16.12,23.4517
16.18,35.7469
16.24,14.0421
16.3,0.0
16.36,0.0
16.42,0.0
16.48,10.2228
16.54,16.518
16.6,0.0
16.66,35.1084
16.72,24.4036
16.78,47.6988
16.84,14.9939
16.9,65.2891
16.96,25.5843
17.02,26.8795
17.08,19.1747
17.14,65.4699
17.2,0.0
17.26,59.0602
17.32,5.35542
17.38,15.6506
17.44,7.94579
17.5,20.241
17.56,28.5362
17.62,31.8313
17.68,28.1265
17.74,23.4217
17.8,34.7169
17.86,15.0121
17.92,46.3073
17.98,54.6025
18.04,34.8976
18.1,0.192831
18.16,0.0
18.22,37.7832
18.28,25.0784
18.34,65.3736
18.4,7.66876
18.46,62.9639
18.52,43.2591
18.58,31.5543
18.64,12.8495
18.7,8.14468
18.76,45.4399
18.82,25.7351
18.88,45.0302
18.94,22.3254
19.0,11.6206
19.06,10.9158
19.12,75.211
19.18,19.5062
19.24,24.8013
19.3,46.0965
19.36,29.3917
19.42,23.6869
19.48,47.9821
19.54,7.61773
19.6,59.9343
19.66,41.2508
19.72,57.5674
19.78,56.8839
19.84,71.2005
19.9,78.517
19.96,68.8336
20.02,50.1501
20.08,53.4667
20.14,49.7832
20.2,36.0998
20.26,38.4163
20.32,65.7329
20.38,57.0494
20.44,68.366
20.5,31.6825
20.56,12.9991
20.62,24.3156
20.68,50.6322
20.74,32.9487
20.8,53.2653
20.86,46.5818
20.92,65.8984
20.98,30.2149
21.04,39.5315
21.1,9.84803
21.16,7.16458
21.22,79.4811
21.28,62.7977
21.34,54.1142
21.4,63.4308
21.46,119.747
21.52,144.064
21.58,177.38
21.64,292.697
21.7,187.014
21.76,129.33
21.82,81.6466
21.88,63.9632
21.94,83.2797
22.0,24.5963
22.06,44.9128
22.12,40.2294
22.18,97.5459
22.24,94.8625
22.3,52.179
22.36,58.4956
22.42,30.8121
22.48,31.1287
22.54,56.4452
22.6,32.7618
22.66,30.0783
22.72,54.3949
22.78,82.7114
22.84,71.028
22.9,39.3445
22.96,32.6611
23.02,37.9776
23.08,47.2942
23.14,85.6107
23.2,35.9273
23.26,68.2438
23.32,34.5604
23.38,95.8769
23.44,67.1935
23.5,102.51
23.56,147.827
23.62,121.143
23.68,161.46
23.74,205.776
23.8,303.093
23.86,400.409
23.92,669.726
23.98,984.042
24.04,1557.36
24.1,2342.68
24.16,3558.99
24.22,4810.31
24.28,5155.63
24.34,3683.94
24.4,2061.26
24.46,1025.57
24.52,665.891
24.58,414.208
24.64,279.524
24.7,200.841
24.76,220.158
24.82,157.474
24.88,136.791
24.94,120.107
25.0,117.424
25.06,65.7403
25.12,111.057
25.18,72.3734
25.24,93.69
25.3,111.007
25.36,76.3231
25.42,76.6396
25.48,125.956
25.54,79.2727
25.6,62.5893
25.66,119.906
25.72,56.2224
25.78,77.5389
25.84,79.8555
25.9,50.172
25.96,70.4886
26.02,54.8051
26.08,61.1217
26.14,64.4382
26.2,54.7548
26.26,81.0713
26.32,70.3879
26.38,58.7044
26.44,62.021
26.5,30.3375
26.56,50.6541
26.62,48.9706
26.68,67.2872
26.74,83.6037
26.8,106.92
26.86,91.2368
26.92,56.5534
26.98,58.8699
27.04,49.1865
27.1,45.503
27.16,57.8196
27.22,72.1361
27.28,38.9119
27.34,61.4174
27.4,34.9228
27.46,48.4282
27.52,36.9336
27.58,74.439
27.64,70.9444
27.7,83.4498
27.76,52.9553
27.82,34.4607
27.88,80.9661
27.94,122.472
28.0,86.9769
28.06,127.482
28.12,168.988
28.18,238.493
28.24,304.999
28.3,474.504
28.36,650.009
28.42,959.515
28.48,1233.02
28.54,1168.53
28.6,895.031
28.66,602.536
28.72,332.042
28.78,260.547
28.84,200.053
28.9,161.558
28.96,110.064
29.02,106.569
29.08,140.074
29.14,93.5798
29.2,84.0852
29.26,90.5906
29.32,119.096
29.38,159.601
29.44,200.107
29.5,294.612
29.56,452.118
29.62,676.623
29.68,1012.13
29.74,1410.63
29.8,1798.14
29.86,1580.64
29.92,1083.15
29.98,555.656
30.04,394.161
30.1,228.666
30.16,176.172
30.22,110.677
30.28,105.183
30.34,87.6881
30.4,105.194
30.46,107.699
30.52,157.204
30.58,232.71
30.64,328.215
30.7,552.721
30.76,602.226
30.82,391.731
30.88,266.237
30.94,106.742
31.0,75.2477
31.06,44.7531
31.12,64.2585
31.18,42.7639
31.24,43.2693
31.3,16.7747
31.36,25.2801
31.42,46.7856
31.48,34.291
31.54,37.7964
31.6,52.3018
31.66,60.8072
31.72,60.3126
31.78,46.818
31.84,67.3235
31.9,21.8289
31.96,60.3343
32.02,33.8397
32.08,0.0
32.14,49.8505
32.2,8.35595
32.26,20.8614
32.32,20.3668
32.38,35.8449
32.44,15.3095
32.5,14.774
32.56,32.2385
32.62,58.703
32.68,36.1675
32.74,23.6321
32.8,14.0966
32.86,28.5611
32.92,26.0256
32.98,45.4901
33.04,50.9547
33.1,30.4192
33.16,31.8837
33.22,45.3482
33.28,42.8127
33.34,43.2773
33.4,45.7418
33.46,55.2063
33.52,38.6708
33.58,82.1353
33.64,69.5999
33.7,69.0644
33.76,108.529
33.82,69.9934
33.88,130.458
33.94,110.922
34.0,170.387
34.06,229.852
34.12,326.316
34.18,416.781
34.24,604.245
34.3,841.71
34.36,1210.17
34.42,1727.64
34.48,2150.1
34.54,2390.57
34.6,2138.03
34.66,1538.5
34.72,1059.96
34.78,743.426
34.84,507.89
34.9,334.355
34.96,250.819
35.02,170.284
35.08,139.748
35.14,114.213
35.2,124.677
35.26,92.1419
35.32,100.606
35.38,66.071
35.44,74.5355
35.5,51
35.56,68.4645
35.62,44.9291
35.68,46.3936
35.74,43.8581
35.8,61.3226
35.86,61.7871
35.92,34.2517
35.98,27.7162
36.04,32.1807
36.1,32.6452
36.16,0.0
36.22,17.5743
36.28,63.0388
36.34,22.5033
36.4,36.9678
36.46,21.4323
36.52,26.8969
36.58,25.3614
36.64,39.8259
36.7,0.0
36.76,17.755
36.82,23.2195
36.88,19.684
36.94,3.14851
37.0,31.613
37.06,28.0776
37.12,29.5421
37.18,43.0066
37.24,40.4711
37.3,39.9356
37.36,71.4002
37.42,122.865
37.48,98.3292
37.54,146.794
37.6,286.258
37.66,394.723
37.72,385.187
37.78,426.652
37.84,340.116
37.9,303.581
37.96,195.045
38.02,117.51
38.08,87.9744
38.14,75.4389
38.2,46.9034
38.26,66.368
38.32,60.8325
38.38,69.297
38.44,30.7615
38.5,1.22605
38.56,31.6906
38.62,68.1551
38.68,45.6196
38.74,83.0841
38.8,0.548657
38.86,39.0132
38.92,41.4777
38.98,32.9422
39.04,40.4067
39.1,22.8713
39.16,51.3358
39.22,21.8003
39.28,0.0
39.34,16.7293
39.4,39.1939
39.46,34.6584
39.52,16.1229
39.58,42.5874
39.64,38.0519
39.7,20.5165
39.76,42.981
39.82,43.4455
39.88,47.91
39.94,29.3746
40.0,20.8391
40.06,38.3036
40.12,36.7681
40.18,57.2326
40.24,36.6972
40.3,31.0219
40.36,30.0671
40.42,5.11228
40.48,68.1575
40.54,44.2027
40.6,45.2478
40.66,42.293
40.72,27.3382
40.78,30.3834
40.84,74.4286
40.9,36.4738
40.96,35.519
41.02,53.5642
41.08,37.6094
41.14,35.6545
41.2,53.6997
41.26,55.7449
41.32,64.7901
41.38,37.8353
41.44,51.8805
41.5,42.9257
41.56,56.9709
41.62,67.016
41.68,61.0612
41.74,78.1064
41.8,73.1516
41.86,61.1968
41.92,54.242
41.98,110.287
42.04,158.332
42.1,136.378
42.16,184.423
42.22,232.468
42.28,327.513
42.34,472.558
42.4,744.604
42.46,984.649
42.52,1386.69
42.58,1628.74
42.64,1683.78
42.7,1425.83
42.76,1087.87
42.82,777.92
42.88,546.965
42.94,395.01
43.0,275.055
43.06,216.101
43.12,156.146
43.18,159.191
43.24,99.2361
43.3,84.2813
43.36,85.3265
43.42,73.3717
43.48,77.4169
43.54,62.4621
43.6,70.5073
43.66,67.5525
43.72,84.5976
43.78,98.6428
43.84,76.688
43.9,111.733
43.96,136.778
44.02,171.824
44.08,105.869
44.14,116.914
44.2,74.9592
44.26,17.0043
44.32,59.0495
44.38,73.0947
44.44,63.1399
44.5,46.1851
44.56,83.2303
44.62,65.2755
44.68,72.3207
44.74,63.3659
44.8,88.411
44.86,121.456
44.92,82.5014
44.98,139.547
45.04,224.592
45.1,259.637
45.16,288.682
45.22,398.727
45.28,501.773
45.34,465.818
45.4,449.863
45.46,376.908
45.52,295.953
45.58,215.998
45.64,171.044
45.7,135.089
45.76,103.134
45.82,62.1793
45.88,65.2244
45.94,40.2696
46.0,84.3148
46.06,32.36
46.12,38.4052
46.18,35.4504
46.24,43.4956
46.3,48.5408
46.36,49.5859
46.42,48.6311
46.48,37.6763
46.54,38.7215
46.6,43.7667
46.66,31.8119
46.72,52.8571
46.78,31.9023
46.84,47.9475
46.9,51.9926
46.96,41.0378
47.02,22.083
47.08,22.1282
47.14,55.1734
47.2,18.2186
47.26,56.2638
47.32,11.309
47.38,17.3542
47.44,26.3993
47.5,29.4445
47.56,30.4897
47.62,74.5349
47.68,37.5801
47.74,22.6317
47.8,35.6865
47.86,53.7413
47.92,53.796
47.98,21.8508
48.04,21.9056
48.1,58.9604
48.16,24.0152
48.22,28.07
48.28,33.1248
48.34,57.1796
48.4,51.2343
48.46,55.2891
48.52,54.3439
48.58,28.3987
48.64,46.4535
48.7,12.5083
48.76,98.5631
48.82,95.6179
48.88,84.6726
48.94,113.727
49.0,124.782
49.06,158.837
49.12,179.892
49.18,225.947
49.24,350.001
49.3,469.056
49.36,601.111
49.42,875.166
49.48,1129.22
49.54,1442.28
49.6,1494.33
49.66,1357.38
49.72,1129.44
49.78,862.494
49.84,634.549
49.9,468.604
49.96,319.659
50.02,248.714
50.08,199.768
50.14,152.823
50.2,145.878
50.26,121.933
50.32,129.988
50.38,81.0423
50.44,85.0971
50.5,83.1519
50.56,75.2067
50.62,79.2615
50.68,58.3163
50.74,65.3711
50.8,48.4258
50.86,82.4806
50.92,44.5354
50.98,50.5902
51.04,46.645
51.1,32.6998
51.16,82.7546
51.22,45.8094
51.28,82.8641
51.34,58.9189
51.4,84.9737
51.46,97.0285
51.52,83.0833
51.58,125.138
51.64,137.193
51.7,168.248
51.76,219.302
51.82,267.357
51.88,303.412
51.94,401.467
52.0,463.522
52.06,476.576
52.12,384.631
52.18,350.686
52.24,290.741
52.3,222.796
52.36,186.85
52.42,95.9051
52.48,87.9599
52.54,84.0147
52.6,60.0695
52.66,89.1243
52.72,61.179
52.78,59.2338
52.84,43.2886
52.9,48.3434
52.96,64.3982
53.02,48.453
53.08,52.5078
53.14,40.5626
53.2,11.6173
53.26,4.67214
53.32,32.7269
53.38,42.7817
53.44,6.8365
53.5,19.8913
53.56,3.94607
53.62,36.0009
53.68,11.0556
53.74,33.1104
53.8,17.1652
53.86,3.18349
53.92,33.1835
53.98,33.1835
54.04,44.1835
54.1,22.1835
54.16,48.1835
54.22,79.1835
54.28,45.1835
54.34,42.1835
54.4,77.1835
54.46,130.183
54.52,216.183
54.58,206.183
54.64,165.183
54.7,148.183
54.76,51.1835
54.82,70.1835
54.88,65.1835
54.94,53.1835
55.0,47.1835
55.06,62.1835
55.12,71.1835
55.18,58.1835
55.24,60.1835
55.3,105.183
55.36,101.183
55.42,96.1835
55.48,146.183
55.54,191.183
55.6,213.183
55.66,268.183
55.72,321.183
55.78,371.183
55.84,503.183
55.9,558.183
55.96,523.183
56.02,490.183
56.08,378.183
56.14,340.183
56.2,249.183
56.26,200.183
56.32,136.183
56.38,154.183
56.44,50.1835
56.5,99.1835
56.56,63.1835
56.62,66.1835
56.68,68.1835
56.74,33.1835
56.8,45.1835
56.86,39.1835
56.92,54.1835
56.98,45.1835
57.04,85.1835
57.1,20.1835
57.16,24.1835
57.22,32.1835
57.28,34.1835
57.34,31.1835
57.4,31.1835
57.46,38.1835
57.52,54.1835
57.58,42.1835
57.64,41.1835
57.7,43.1835
57.76,57.1835
57.82,47.1835
57.88,64.1835
57.94,89.1835
58.0,92.1835
58.06,123.183
58.12,148.183
58.18,148.183
58.24,136.183
58.3,134.183
58.36,136.183
58.42,101.183
58.48,79.1835
58.54,103.183
58.6,101.183
58.66,132.183
58.72,168.183
58.78,195.183
58.84,239.183
58.9,240.183
58.96,239.183
59.02,197.183
59.08,194.183
59.14,138.183
59.2,102.183
59.26,85.1835
59.32,72.1835
59.38,92.1835
59.44,56.1835
59.5,36.1835
59.56,31.1835
59.62,53.1835
59.68,39.1835
59.74,36.1835
59.8,37.1835
59.86,30.1835
59.92,50.1835
59.98,13.1835
60.04,30.1835
60.1,22.1835
60.16,20.1835
60.22,40.1835
60.28,28.1835
60.34,16.1835
60.4,21.1835
60.46,38.2751
60.52,23.4125
60.58,38.5499
60.64,48.6874
60.7,35.8248
60.76,14.9622
60.82,44.0996
60.88,27.237
60.94,38.3744
61.0,16.5119
61.06,44.6493
61.12,45.7867
61.18,74.9241
61.24,73.0615
61.3,74.1989
61.36,105.336
61.42,113.474
61.48,164.611
61.54,181.749
61.6,271.886
61.66,292.023
61.72,414.161
61.78,481.298
61.84,433.436
61.9,374.573
61.96,330.711
62.02,246.848
62.08,199.985
62.14,150.123
62.2,126.26
62.26,123.398
62.32,63.5351
62.38,44.6725
62.44,42.8099
62.5,39.9473
62.56,57.0847
62.62,62.2221
62.68,31.3596
62.74,56.497
62.8,50.6344
62.86,30.7718
62.92,24.9092
62.98,48.0466
63.04,63.1841
63.1,43.3215
63.16,22.4589
63.22,43.5963
63.28,53.7337
63.34,37.8712
63.4,66.0086
63.46,94.146
63.52,79.2834
63.58,120.421
63.64,116.558
63.7,120.696
63.76,206.833
63.82,223.97
63.88,231.108
63.94,236.245
64.0,204.383
64.06,226.52
64.12,146.658
64.18,130.795
64.24,104.932
64.3,64.0698
64.36,65.2073
64.42,83.3447
64.48,63.4821
64.54,59.6195
64.6,57.7569
64.66,41.8943
64.72,55.0318
64.78,41.1692
64.84,41.3066
64.9,25.444
64.96,39.5814
65.02,29.7189
65.08,32.8563
65.14,29.9937
65.2,44.1311
65.26,36.2685
65.32,40.3784
65.38,65.4332
65.44,33.488
65.5,52.5428
65.56,46.5976
65.62,32.6523
65.68,39.7071
65.74,42.7619
65.8,53.8167
65.86,14.8715
65.92,42.9263
65.98,58.9811
66.04,23.0359
66.1,56.0906
66.16,41.1454
66.22,62.2002
66.28,54.255
66.34,38.3098
66.4,43.3646
66.46,58.4194
66.52,45.4742
66.58,83.5289
66.64,77.5837
66.7,106.639
66.76,102.693
66.82,100.748
66.88,145.803
66.94,166.858
67.0,169.912
67.06,253.967
67.12,350.022
67.18,405.077
67.24,452.132
67.3,552.186
67.36,575.241
67.42,472.296
67.48,469.351
67.54,361.406
67.6,350.46
67.66,247.515
67.72,227.57
67.78,185.625
67.84,160.679
67.9,127.734
67.96,127.789
68.02,99.8438
68.08,107.899
68.14,99.9534
68.2,82.0082
68.26,107.063
68.32,64.1178
68.38,71.1726
68.44,108.227
68.5,90.2821
68.56,63.3369
68.62,71.3917
68.68,71.4465
68.74,42.5013
68.8,52.5561
68.86,51.6109
68.92,71.6657
68.98,80.7204
69.04,100.775
69.1,75.83
69.16,98.8848
69.22,95.9396
69.28,146.994
69.34,165.049
69.4,152.104
69.46,172.159
69.52,180.214
69.58,133.268
69.64,110.323
69.7,75.3779
69.76,73.4327
69.82,56.4875
69.88,69.5423
69.94,49.597
70.0,74.6518
70.06,43.7066
70.12,40.7614
70.18,29.8162
70.24,39.871
70.3,28.9258
70.36,30.9806
70.42,51.0353
70.48,36.0901
70.54,31.1449
70.6,39.1997
70.66,30.2545
70.72,29.3093
70.78,20.3641
70.84,20.4189
70.9,26.4736
70.96,32.5284
71.02,31.5832
71.08,28.638
71.14,32.6928
71.2,2.74758
71.26,27.8024
71.32,36.8572
71.38,33.9119
71.44,23.9377
71.5,27.9052
71.56,7.8728
71.62,30.8404
71.68,19.8079
71.74,52.7755
71.8,45.7431
71.86,52.7107
71.92,51.6782
71.98,29.6458
72.04,38.6134
72.1,52.581
72.16,36.5485
72.22,32.5161
72.28,64.4837
72.34,91.4512
72.4,101.419
72.46,149.386
72.52,164.354
72.58,123.322
72.64,157.289
72.7,144.257
72.76,147.224
72.82,150.192
72.88,115.159
72.94,103.127
73.0,85.0945
73.06,78.0621
73.12,72.0297
73.18,51.9973
73.24,34.9648
73.3,48.9324
73.36,4.89998
73.42,37.8675
73.48,35.8351
73.54,45.8027
73.6,32.7703
73.66,18.7378
73.72,27.7054
73.78,36.673
73.84,26.6406
73.9,6.60813
73.96,23.5757
74.02,37.5433
74.08,29.5108
74.14,41.4784
74.2,39.446
74.26,45.4136
74.32,14.3811
74.38,28.3487
74.44,50.3163
74.5,43.2839
74.56,11.2514
74.62,26.219
74.68,40.1866
74.74,39.1541
74.8,22.1217
74.86,39.0893
74.92,45.0569
74.98,20.0244
75.04,46.992
75.1,5.95958
75.16,31.9272
75.22,18.8947
75.28,41.8623
75.34,40.8299
75.4,28.7974
75.46,42.765
75.52,29.7326
75.58,8.70016
75.64,17.6677
75.7,9.63531
75.76,35.6029
75.82,19.5705
75.88,6.53803
75.94,28.5056
76.0,42.4732
76.06,16.4407
76.12,22.4083
76.18,0.0
76.24,44.3435
76.3,49.311
76.36,21.2786
76.42,25.2462
76.48,62.2138
76.54,40.1813
76.6,25.1489
76.66,32.1165
76.72,55.084
76.78,42.0516
76.84,52.0192
76.9,63.9868
76.96,53.9543
77.02,26.9219
77.08,70.8895
77.14,50.857
77.2,49.8246
77.26,73.7922
77.32,69.7598
77.38,84.7273
77.44,78.6949
77.5,90.6625
77.56,113.63
77.62,130.598
77.68,134.565
77.74,155.533
77.8,209.5
77.86,184.468
77.92,217.435
77.98,181.403
78.04,179.371
78.1,170.338
78.16,126.306
78.22,139.273
78.28,118.241
78.34,119.209
78.4,91.1761
78.46,55.1436
78.52,47.1112
78.58,58.0788
78.64,52.0464
78.7,44.0139
78.76,91.9815
78.82,41.9491
78.88,53.9167
78.94,29.8842
79.0,40.8518
79.06,44.8194
79.12,74.7869
79.18,26.7545
79.24,53.7221
79.3,43.6897
79.36,44.6572
79.42,57.6248
79.48,67.5924
79.54,79.56
79.6,79.5275
79.66,88.4951
79.72,109.463
79.78,137.43
79.84,105.398
79.9,82.3654
79.96,134.333
80.02,85.3005
80.08,83.2681
80.14,59.2357
80.2,96.2033
80.26,89.1708
80.32,90.1384
80.38,94.106
80.44,109.074
80.5,92.0411
80.56,88.0087
80.62,77.9763
80.68,57.9438
80.74,91.9114
80.8,79.879
80.86,56.8465
80.92,82.8141
80.98,86.7817
81.04,21.7493
81.1,59.7168
81.16,44.6844
81.22,44.652
81.28,39.6196
81.34,48.5871
81.4,37.5547
81.46,25.5223
81.52,25.4898
81.58,38.4574
81.64,36.425
81.7,38.3926
81.76,24.3601
81.82,18.1572
81.88,51.9542
81.94,34.7512
82.0,71.5483
82.06,45.3453
82.12,46.1423
82.18,74.9394
82.24,48.7364
82.3,77.5334
82.36,70.3305
82.42,72.1275
82.48,105.925
82.54,86.7216
82.6,119.519
82.66,128.316
82.72,153.113
82.78,144.91
82.84,212.707
82.9,223.504
82.96,249.301
83.02,237.098
83.08,230.895
83.14,206.692
83.2,195.489
83.26,172.286
83.32,183.083
83.38,176.88
83.44,104.677
83.5,118.474
83.56,109.271
83.62,67.0682
83.68,107.865
83.74,89.6623
83.8,85.4593
83.86,82.2563
83.92,52.0534
83.98,34.8504
84.04,54.6474
84.1,19.4445
84.16,48.2415
84.22,38.0385
84.28,54.8356
84.34,44.6326
84.4,46.4296
84.46,63.2267
84.52,100.024
84.58,63.8207
84.64,86.6178
84.7,74.4148
84.76,91.2118
84.82,105.009
84.88,88.8059
84.94,88.6029
85.0,115.4
85.06,78.197
85.12,82.9941
85.18,53.7911
85.24,35.5881
85.3,40.3852
85.36,47.1822
85.42,45.9792
85.48,25.7763
85.54,21.5733
85.6,28.3703
85.66,29.1674
85.72,33.9644
85.78,28.7614
85.84,29.5585
85.9,20.3555
85.96,48.1525
86.02,34.9496
86.08,10.7466
86.14,1.54363
86.2,9.34067
86.26,3.1377
86.32,13.9347
86.38,2.73177
86.44,0.0
86.5,38.3258
86.56,13.1229
86.62,34.9199
86.68,15.7169
86.74,0.0
86.8,20.311
86.86,30.108
86.92,37.9051
86.98,10.7021
87.04,3.49915
87.1,20.2962
87.16,34.0932
87.22,55.8902
87.28,51.6873
87.34,15.4843
87.4,28.2814
87.46,26.0784
87.52,26.8754
87.58,36.6725
87.64,40.4695
87.7,83.2665
87.76,52.0636
87.82,65.8606
87.88,80.6576
87.94,74.4547
88.0,111.252
88.06,75.0487
88.12,91.8458
88.18,101.643
88.24,83.4398
88.3,84.2369
88.36,92.0339
88.42,37.8309
88.48,75.628
88.54,51.425
88.6,64.222
88.66,76.0191
88.72,75.8161
88.78,79.6131
88.84,69.4102
88.9,50.2072
88.96,58.0042
89.02,43.8013
89.08,29.5983
89.14,45.3953
89.2,30.1924
89.26,38.9894
89.32,42.7864
89.38,46.5835
89.44,9.38051
89.5,34.1775
89.56,31.9746
89.62,33.7716
89.68,35.5686
89.74,56.3657
89.8,82.1627
89.86,59.9598
89.92,49.7568
89.98,52.5538
90.0,38.4862