File: Bg_sbtracted_data/subtracted_data.csv
2theta,intensity
10.0,1014.0
10.06,1010.13
10.12,1006.27
10.18,1002.4
10.24,998.539
10.3,994.674
10.36,990.809
10.42,986.943
10.48,983.078
10.54,979.213
10.6,975.348
10.66,971.482
10.72,967.617
10.78,963.752
10.84,959.887
10.9,956.022
10.96,952.156
11.02,948.291
11.08,944.426
11.14,940.561
11.2,936.695
11.26,932.83
11.32,928.965
11.38,925.1
11.44,921.234
11.5,917.369
11.56,913.504
11.62,909.639
11.68,905.774
11.74,901.908
11.8,898.043
11.86,894.178
11.92,890.313
11.98,886.447
12.04,882.582
12.1,878.717
12.16,874.852
12.22,870.986
12.28,867.121
12.34,863.256
12.4,859.391
12.46,855.526
12.52,851.66
12.58,847.795
12.64,843.93
12.7,840.065
12.76,836.199
12.82,832.334
12.88,828.469
12.94,824.604
13.0,820.738
13.06,816.873
13.12,813.008
13.18,809.143
13.24,805.278
13.3,801.412
13.36,797.547
13.42,793.682
13.48,789.817
13.54,785.951
13.6,782.086
13.66,778.221
13.72,774.356
13.78,771.06
13.84,767.765
13.9,764.47
13.96,761.175
14.02,757.88
14.08,754.585
14.14,751.289
14.2,747.994
14.26,744.699
14.32,741.404
14.38,738.109
14.44,734.813
14.5,731.518
14.56,728.223
14.62,724.928
14.68,721.633
14.74,718.338
14.8,715.042
14.86,711.747
14.92,708.452
14.98,705.157
15.04,701.862
15.1,698.566
15.16,695.271
15.22,691.976
15.28,688.681
15.34,685.386
15.4,682.091
15.46,678.795
15.52,675.5
15.58,672.205
15.64,668.91
15.7,665.615
15.76,662.319
15.82,659.024
15.88,655.729
15.94,652.434
16.0,649.139
16.06,645.843
16.12,642.548
16.18,639.253
16.24,635.958
16.3,632.663
16.36,629.368
16.42,626.072
16.48,622.777
16.54,619.482
16.6,616.187
16.66,612.892
16.72,609.596
16.78,606.301
16.84,603.006
16.9,599.711
16.96,596.416
17.02,593.121
17.08,589.825
17.14,586.53
17.2,583.235
17.26,579.94
17.32,576.645
17.38,573.349
17.44,570.054
17.5,566.759
17.56,563.464
17.62,560.169
17.68,556.873
17.74,553.578
17.8,550.283
17.86,546.988
17.92,543.693
17.98,540.398
18.04,537.102
18.1,533.807
18.16,530.512
18.22,527.217
18.28,523.922
18.34,520.626
18.4,517.331
18.46,514.036
18.52,510.741
18.58,507.446
18.64,504.151
18.7,500.855
18.76,497.56
18.82,494.265
18.88,490.97
18.94,487.675
19.0,484.379
19.06,481.084
19.12,477.789
19.18,474.494
19.24,471.199
19.3,467.903
19.36,464.608
19.42,461.313
19.48,458.018
19.54,455.382
19.6,454.066
19.66,452.749
19.72,451.433
19.78,450.116
19.84,448.8
19.9,447.483
19.96,446.166
20.02,444.85
20.08,443.533
20.14,442.217
20.2,440.9
20.26,439.584
20.32,438.267
20.38,436.951
20.44,435.634
20.5,434.317
20.56,433.001
20.62,431.684
20.68,430.368
20.74,429.051
20.8,427.735
20.86,426.418
20.92,425.102
20.98,423.785
21.04,422.469
21.1,421.152
21.16,419.835
21.22,418.519
21.28,417.202
21.34,415.886
21.4,414.569
21.46,413.253
21.52,411.936
21.58,410.62
21.64,409.303
21.7,407.986
21.76,406.67
21.82,405.353
21.88,404.037
21.94,402.72
22.0,401.404
22.06,400.087
22.12,398.771
22.18,397.454
22.24,396.138
22.3,394.821
22.36,393.504
22.42,392.188
22.48,390.871
22.54,389.555
22.6,388.238
22.66,386.922
22.72,385.605
22.78,384.289
22.84,382.972
22.9,381.655
22.96,380.339
23.02,379.022
23.08,377.706
23.14,376.389
23.2,375.073
23.26,373.756
23.32,372.44
23.38,371.123
23.44,369.807
23.5,368.49
23.56,367.173
23.62,365.857
23.68,364.54
23.74,363.224
23.8,361.907
23.86,360.591
23.92,359.274
23.98,357.958
24.04,356.641
24.1,355.324
24.16,354.008
24.22,352.691
24.28,351.375
24.34,350.058
24.4,348.742
24.46,347.425
24.52,346.109
24.58,344.792
24.64,343.476
24.7,342.159
24.76,340.842
24.82,339.526
24.88,338.209
24.94,336.893
25.0,335.576
25.06,334.26
25.12,332.943
25.18,331.627
25.24,330.31
25.3,328.993
25.36,327.677
25.42,326.36
25.48,325.044
25.54,323.727
25.6,322.411
25.66,321.094
25.72,319.778
25.78,318.461
25.84,317.145
25.9,315.828
25.96,314.511
26.02,313.195
26.08,311.878
26.14,310.562
26.2,309.245
26.26,307.929
26.32,306.612
26.38,305.296
26.44,303.979
26.5,302.662
26.56,301.346
26.62,300.029
26.68,298.713
26.74,297.396
26.8,296.08
26.86,294.763
26.92,293.447
26.98,292.13
27.04,290.814
27.1,289.497
27.16,288.18
27.22,286.864
27.28,286.088
27.34,285.583
27.4,285.077
27.46,284.572
27.52,284.066
27.58,283.561
27.64,283.056
27.7,282.55
27.76,282.045
27.82,281.539
27.88,281.034
27.94,280.528
28.0,280.023
28.06,279.518
28.12,279.012
28.18,278.507
28.24,278.001
28.3,277.496
28.36,276.991
28.42,276.485
28.48,275.98
28.54,275.474
28.6,274.969
28.66,274.464
28.72,273.958
28.78,273.453
28.84,272.947
28.9,272.442
28.96,271.936
29.02,271.431
29.08,270.926
29.14,270.42
29.2,269.915
29.26,269.409
29.32,268.904
29.38,268.399
29.44,267.893
29.5,267.388
29.56,266.882
29.62,266.377
29.68,265.871
29.74,265.366
29.8,264.861
29.86,264.355
29.92,263.85
29.98,263.344
30.04,262.839
30.1,262.334
30.16,261.828
30.22,261.323
30.28,260.817
30.34,260.312
30.4,259.806
30.46,259.301
30.52,258.796
30.58,258.29
30.64,257.785
30.7,257.279
30.76,256.774
30.82,256.269
30.88,255.763
30.94,255.258
31.0,254.752
31.06,254.247
31.12,253.742
31.18,253.236
31.24,252.731
31.3,252.225
31.36,251.72
31.42,251.214
31.48,250.709
31.54,250.204
31.6,249.698
31.66,249.193
31.72,248.687
31.78,248.182
31.84,247.677
31.9,247.171
31.96,246.666
32.02,246.16
32.08,245.655
32.14,245.149
32.2,244.644
32.26,244.139
32.32,243.633
32.38,243.155
32.44,242.691
32.5,242.226
32.56,241.762
32.62,241.297
32.68,240.832
32.74,240.368
32.8,239.903
32.86,239.439
32.92,238.974
32.98,238.51
33.04,238.045
33.1,237.581
33.16,237.116
33.22,236.652
33.28,236.187
33.34,235.723
33.4,235.258
33.46,234.794
33.52,234.329
33.58,233.865
33.64,233.4
33.7,232.936
33.76,232.471
33.82,232.007
33.88,231.542
33.94,231.078
34.0,230.613
34.06,230.148
34.12,229.684
34.18,229.219
34.24,228.755
34.3,228.29
34.36,227.826
34.42,227.361
34.48,226.897
34.54,226.432
34.6,225.968
34.66,225.503
34.72,225.039
34.78,224.574
34.84,224.11
34.9,223.645
34.96,223.181
35.02,222.716
35.08,222.252
35.14,221.787
35.2,221.323
35.26,220.858
35.32,220.394
35.38,219.929
35.44,219.465
35.5,219
35.56,218.535
35.62,218.071
35.68,217.606
35.74,217.142
35.8,216.677
35.86,216.213
35.92,215.748
35.98,215.284
36.04,214.819
36.1,214.355
36.16,213.89
36.22,213.426
36.28,212.961
36.34,212.497
36.4,212.032
36.46,211.568
36.52,211.103
36.58,210.639
36.64,210.174
36.7,209.71
36.76,209.245
36.82,208.781
36.88,208.316
36.94,207.851
37.0,207.387
37.06,206.922
37.12,206.458
37.18,205.993
37.24,205.529
37.3,205.064
37.36,204.6
37.42,204.135
37.48,203.671
37.54,203.206
37.6,202.742
37.66,202.277
37.72,201.813
37.78,201.348
37.84,200.884
37.9,200.419
37.96,199.955
38.02,199.49
38.08,199.026
38.14,198.561
38.2,198.097
38.26,197.632
38.32,197.168
38.38,196.703
38.44,196.238
38.5,195.774
38.56,195.309
38.62,194.845
38.68,194.38
38.74,193.916
38.8,193.451
38.86,192.987
38.92,192.522
38.98,192.058
39.04,191.593
39.1,191.129
39.16,190.664
39.22,190.2
39.28,189.735
39.34,189.271
39.4,188.806
39.46,188.342
39.52,187.877
39.58,187.413
39.64,186.948
39.7,186.484
39.76,186.019
39.82,185.554
39.88,185.09
39.94,184.625
40.0,184.161
40.06,183.696
40.12,183.232
40.18,182.767
40.24,182.303
40.3,181.978
40.36,181.933
40.42,181.888
40.48,181.843
40.54,181.797
40.6,181.752
40.66,181.707
40.72,181.662
40.78,181.617
40.84,181.571
40.9,181.526
40.96,181.481
41.02,181.436
41.08,181.391
41.14,181.345
41.2,181.3
41.26,181.255
41.32,181.21
41.38,181.165
41.44,181.12
41.5,181.074
41.56,181.029
41.62,180.984
41.68,180.939
41.74,180.894
41.8,180.848
41.86,180.803
41.92,180.758
41.98,180.713
42.04,180.668
42.1,180.622
42.16,180.577
42.22,180.532
42.28,180.487
42.34,180.442
42.4,180.396
42.46,180.351
42.52,180.306
42.58,180.261
42.64,180.216
42.7,180.171
42.76,180.125
42.82,180.08
42.88,180.035
42.94,179.99
43.0,179.945
43.06,179.899
43.12,179.854
43.18,179.809
43.24,179.764
43.3,179.719
43.36,179.673
43.42,179.628
43.48,179.583
43.54,179.538
43.6,179.493
43.66,179.448
43.72,179.402
43.78,179.357
43.84,179.312
43.9,179.267
43.96,179.222
44.02,179.176
44.08,179.131
44.14,179.086
44.2,179.041
44.26,178.996
44.32,178.95
44.38,178.905
44.44,178.86
44.5,178.815
44.56,178.77
44.62,178.725
44.68,178.679
44.74,178.634
44.8,178.589
44.86,178.544
44.92,178.499
44.98,178.453
45.04,178.408
45.1,178.363
45.16,178.318
45.22,178.273
45.28,178.227
45.34,178.182
45.4,178.137
45.46,178.092
45.52,178.047
45.58,178.002
45.64,177.956
45.7,177.911
45.76,177.866
45.82,177.821
45.88,177.776
45.94,177.73
46.0,177.685
46.06,177.64
46.12,177.595
46.18,177.55
46.24,177.504
46.3,177.459
46.36,177.414
46.42,177.369
46.48,177.324
46.54,177.278
46.6,177.233
46.66,177.188
46.72,177.143
46.78,177.098
46.84,177.053
46.9,177.007
46.96,176.962
47.02,176.917
47.08,176.872
47.14,176.827
47.2,176.781
47.26,176.736
47.32,176.691
47.38,176.646
47.44,176.601
47.5,176.555
47.56,176.51
47.62,176.465
47.68,176.42
47.74,176.368
47.8,176.314
47.86,176.259
47.92,176.204
47.98,176.149
48.04,176.094
48.1,176.04
48.16,175.985
48.22,175.93
48.28,175.875
48.34,175.82
48.4,175.766
48.46,175.711
48.52,175.656
48.58,175.601
48.64,175.547
48.7,175.492
48.76,175.437
48.82,175.382
48.88,175.327
48.94,175.273
49.0,175.218
49.06,175.163
49.12,175.108
49.18,175.053
49.24,174.999
49.3,174.944
49.36,174.889
49.42,174.834
49.48,174.779
49.54,174.725
49.6,174.67
49.66,174.615
49.72,174.56
49.78,174.506
49.84,174.451
49.9,174.396
49.96,174.341
50.02,174.286
50.08,174.232
50.14,174.177
50.2,174.122
50.26,174.067
50.32,174.012
50.38,173.958
50.44,173.903
50.5,173.848
50.56,173.793
50.62,173.739
50.68,173.684
50.74,173.629
50.8,173.574
50.86,173.519
50.92,173.465
50.98,173.41
51.04,173.355
51.1,173.3
51.16,173.245
51.22,173.191
51.28,173.136
51.34,173.081
51.4,173.026
51.46,172.971
51.52,172.917
51.58,172.862
51.64,172.807
51.7,172.752
51.76,172.698
51.82,172.643
51.88,172.588
51.94,172.533
52.0,172.478
52.06,172.424
52.12,172.369
52.18,172.314
52.24,172.259
52.3,172.204
52.36,172.15
52.42,172.095
52.48,172.04
52.54,171.985
52.6,171.931
52.66,171.876
52.72,171.821
52.78,171.766
52.84,171.711
52.9,171.657
52.96,171.602
53.02,171.547
53.08,171.492
53.14,171.437
53.2,171.383
53.26,171.328
53.32,171.273
53.38,171.218
53.44,171.164
53.5,171.109
53.56,171.054
53.62,170.999
53.68,170.944
53.74,170.89
53.8,170.835
53.86,170.817
53.92,170.817
53.98,170.817
54.04,170.817
54.1,170.817
54.16,170.817
54.22,170.817
54.28,170.817
54.34,170.817
54.4,170.817
54.46,170.817
54.52,170.817
54.58,170.817
54.64,170.817
54.7,170.817
54.76,170.817
54.82,170.817
54.88,170.817
54.94,170.817
55.0,170.817
55.06,170.817
55.12,170.817
55.18,170.817
55.24,170.817
55.3,170.817
55.36,170.817
55.42,170.817
55.48,170.817
55.54,170.817
55.6,170.817
55.66,170.817
55.72,170.817
55.78,170.817
55.84,170.817
55.9,170.817
55.96,170.817
56.02,170.817
56.08,170.817
56.14,170.817
56.2,170.817
56.26,170.817
56.32,170.817
56.38,170.817
56.44,170.817
56.5,170.817
56.56,170.817
56.62,170.817
56.68,170.817
56.74,170.817
56.8,170.817
56.86,170.817
56.92,170.817
56.98,170.817
57.04,170.817
57.1,170.817
57.16,170.817
57.22,170.817
57.28,170.817
57.34,170.817
57.4,170.817
57.46,170.817
57.52,170.817
57.58,170.817
57.64,170.817
57.7,170.817
57.76,170.817
57.82,170.817
57.88,170.817
57.94,170.817
58.0,170.817
58.06,170.817
58.12,170.817
58.18,170.817
58.24,170.817
58.3,170.817
58.36,170.817
58.42,170.817
58.48,170.817
58.54,170.817
58.6,170.817
58.66,170.817
58.72,170.817
58.78,170.817
58.84,170.817
58.9,170.817
58.96,170.817
59.02,170.817
59.08,170.817
59.14,170.817
59.2,170.817
59.26,170.817
59.32,170.817
59.38,170.817
59.44,170.817
59.5,170.817
59.56,170.817
59.62,170.817
59.68,170.817
59.74,170.817
59.8,170.817
59.86,170.817
59.92,170.817
59.98,170.817
60.04,170.817
60.1,170.817
60.16,170.817
60.22,170.817
60.28,170.817
60.34,170.817
60.4,170.817
60.46,170.725
60.52,170.587
60.58,170.45
60.64,170.313
60.7,170.175
60.76,170.038
60.82,169.9
60.88,169.763
60.94,169.626
61.0,169.488
61.06,169.351
61.12,169.213
61.18,169.076
61.24,168.938
61.3,168.801
61.36,168.664
61.42,168.526
61.48,168.389
61.54,168.251
61.6,168.114
61.66,167.977
61.72,167.839
61.78,167.702
61.84,167.564
61.9,167.427
61.96,167.289
62.02,167.152
62.08,167.015
62.14,166.877
62.2,166.74
62.26,166.602
62.32,166.465
62.38,166.328
62.44,166.19
62.5,166.053
62.56,165.915
62.62,165.778
62.68,165.64
62.74,165.503
62.8,165.366
62.86,165.228
62.92,165.091
62.98,164.953
63.04,164.816
63.1,164.679
63.16,164.541
63.22,164.404
63.28,164.266
63.34,164.129
63.4,163.991
63.46,163.854
63.52,163.717
63.58,163.579
63.64,163.442
63.7,163.304
63.76,163.167
63.82,163.03
63.88,162.892
63.94,162.755
64.0,162.617
64.06,162.48
64.12,162.342
64.18,162.205
64.24,162.068
64.3,161.93
64.36,161.793
64.42,161.655
64.48,161.518
64.54,161.38
64.6,161.243
64.66,161.106
64.72,160.968
64.78,160.831
64.84,160.693
64.9,160.556
64.96,160.419
65.02,160.281
65.08,160.144
65.14,160.006
65.2,159.869
65.26,159.731
65.32,159.622
65.38,159.567
65.44,159.512
65.5,159.457
65.56,159.402
65.62,159.348
65.68,159.293
65.74,159.238
65.8,159.183
65.86,159.129
65.92,159.074
65.98,159.019
66.04,158.964
66.1,158.909
66.16,158.855
66.22,158.8
66.28,158.745
66.34,158.69
66.4,158.635
66.46,158.581
66.52,158.526
66.58,158.471
66.64,158.416
66.7,158.361
66.76,158.307
66.82,158.252
66.88,158.197
66.94,158.142
67.0,158.088
67.06,158.033
67.12,157.978
67.18,157.923
67.24,157.868
67.3,157.814
67.36,157.759
67.42,157.704
67.48,157.649
67.54,157.594
67.6,157.54
67.66,157.485
67.72,157.43
67.78,157.375
67.84,157.321
67.9,157.266
67.96,157.211
68.02,157.156
68.08,157.101
68.14,157.047
68.2,156.992
68.26,156.937
68.32,156.882
68.38,156.827
68.44,156.773
68.5,156.718
68.56,156.663
68.62,156.608
68.68,156.553
68.74,156.499
68.8,156.444
68.86,156.389
68.92,156.334
68.98,156.28
69.04,156.225
69.1,156.17
69.16,156.115
69.22,156.06
69.28,156.006
69.34,155.951
69.4,155.896
69.46,155.841
69.52,155.786
69.58,155.732
69.64,155.677
69.7,155.622
69.76,155.567
69.82,155.513
69.88,155.458
69.94,155.403
70.0,155.348
70.06,155.293
70.12,155.239
70.18,155.184
70.24,155.129
70.3,155.074
70.36,155.019
70.42,154.965
70.48,154.91
70.54,154.855
70.6,154.8
70.66,154.746
70.72,154.691
70.78,154.636
70.84,154.581
70.9,154.526
70.96,154.472
71.02,154.417
71.08,154.362
71.14,154.307
71.2,154.252
71.26,154.198
71.32,154.143
71.38,154.088
71.44,154.062
71.5,154.095
71.56,154.127
71.62,154.16
71.68,154.192
71.74,154.224
71.8,154.257
71.86,154.289
71.92,154.322
71.98,154.354
72.04,154.387
72.1,154.419
72.16,154.451
72.22,154.484
72.28,154.516
72.34,154.549
72.4,154.581
72.46,154.614
72.52,154.646
72.58,154.678
72.64,154.711
72.7,154.743
72.76,154.776
72.82,154.808
72.88,154.841
72.94,154.873
73.0,154.905
73.06,154.938
73.12,154.97
73.18,155.003
73.24,155.035
73.3,155.068
73.36,155.1
73.42,155.132
73.48,155.165
73.54,155.197
73.6,155.23
73.66,155.262
73.72,155.295
73.78,155.327
73.84,155.359
73.9,155.392
73.96,155.424
74.02,155.457
74.08,155.489
74.14,155.522
74.2,155.554
74.26,155.586
74.32,155.619
74.38,155.651
74.44,155.684
74.5,155.716
74.56,155.749
74.62,155.781
74.68,155.813
74.74,155.846
74.8,155.878
74.86,155.911
74.92,155.943
74.98,155.976
75.04,156.008
75.1,156.04
75.16,156.073
75.22,156.105
75.28,156.138
75.34,156.17
75.4,156.203
75.46,156.235
75.52,156.267
75.58,156.3
75.64,156.332
75.7,156.365
75.76,156.397
75.82,156.43
75.88,156.462
75.94,156.494
76.0,156.527
76.06,156.559
76.12,156.592
76.18,156.624
76.24,156.657
76.3,156.689
76.36,156.721
76.42,156.754
76.48,156.786
76.54,156.819
76.6,156.851
76.66,156.884
76.72,156.916
76.78,156.948
76.84,156.981
76.9,157.013
76.96,157.046
77.02,157.078
77.08,157.111
77.14,157.143
77.2,157.175
77.26,157.208
77.32,157.24
77.38,157.273
77.44,157.305
77.5,157.338
77.56,157.37
77.62,157.402
77.68,157.435
77.74,157.467
77.8,157.5
77.86,157.532
77.92,157.565
77.98,157.597
78.04,157.629
78.1,157.662
78.16,157.694
78.22,157.727
78.28,157.759
78.34,157.791
78.4,157.824
78.46,157.856
78.52,157.889
78.58,157.921
78.64,157.954
78.7,157.986
78.76,158.018
78.82,158.051
78.88,158.083
78.94,158.116
79.0,158.148
79.06,158.181
79.12,158.213
79.18,158.245
79.24,158.278
79.3,158.31
79.36,158.343
79.42,158.375
79.48,158.408
79.54,158.44
79.6,158.472
79.66,158.505
79.72,158.537
79.78,158.57
79.84,158.602
79.9,158.635
79.96,158.667
80.02,158.699
80.08,158.732
80.14,158.764
80.2,158.797
80.26,158.829
80.32,158.862
80.38,158.894
80.44,158.926
80.5,158.959
80.56,158.991
80.62,159.024
80.68,159.056
80.74,159.089
80.8,159.121
80.86,159.153
80.92,159.186
80.98,159.218
81.04,159.251
81.1,159.283
81.16,159.316
81.22,159.348
81.28,159.38
81.34,159.413
81.4,159.445
81.46,159.478
81.52,159.51
81.58,159.543
81.64,159.575
81.7,159.607
81.76,159.64
81.82,159.843
81.88,160.046
81.94,160.249
82.0,160.452
82.06,160.655
82.12,160.858
82.18,161.061
82.24,161.264
82.3,161.467
82.36,161.67
82.42,161.872
82.48,162.075
82.54,162.278
82.6,162.481
82.66,162.684
82.72,162.887
82.78,163.09
82.84,163.293
82.9,163.496
82.96,163.699
83.02,163.902
83.08,164.105
83.14,164.308
83.2,164.511
83.26,164.714
83.32,164.917
83.38,165.12
83.44,165.323
83.5,165.526
83.56,165.729
83.62,165.932
83.68,166.135
83.74,166.338
83.8,166.541
83.86,166.744
83.92,166.947
83.98,167.15
84.04,167.353
84.1,167.556
84.16,167.758
84.22,167.961
84.28,168.164
84.34,168.367
84.4,168.57
84.46,168.773
84.52,168.976
84.58,169.179
84.64,169.382
84.7,169.585
84.76,169.788
84.82,169.991
84.88,170.194
84.94,170.397
85.0,170.6
85.06,170.803
85.12,171.006
85.18,171.209
85.24,171.412
85.3,171.615
85.36,171.818
85.42,172.021
85.48,172.224
85.54,172.427
85.6,172.63
85.66,172.833
85.72,173.036
85.78,173.239
85.84,173.442
85.9,173.645
85.96,173.847
86.02,174.05
86.08,174.253
86.14,174.456
86.2,174.659
86.26,174.862
86.32,175.065
86.38,175.268
86.44,175.471
86.5,175.674
86.56,175.877
86.62,176.08
86.68,176.283
86.74,176.486
86.8,176.689
86.86,176.892
86.92,177.095
86.98,177.298
87.04,177.501
87.1,177.704
87.16,177.907
87.22,178.11
87.28,178.313
87.34,178.516
87.4,178.719
87.46,178.922
87.52,179.125
87.58,179.328
87.64,179.531
87.7,179.733
87.76,179.936
87.82,180.139
87.88,180.342
87.94,180.545
88.0,180.748
88.06,180.951
88.12,181.154
88.18,181.357
88.24,181.56
88.3,181.763
88.36,181.966
88.42,182.169
88.48,182.372
88.54,182.575
88.6,182.778
88.66,182.981
88.72,183.184
88.78,183.387
88.84,183.59
88.9,183.793
88.96,183.996
89.02,184.199
89.08,184.402
89.14,184.605
89.2,184.808
89.26,185.011
89.32,185.214
89.38,185.417
89.44,185.619
89.5,185.822
89.56,186.025
89.62,186.228
89.68,186.431
89.74,186.634
89.8,186.837
89.86,187.04
89.92,187.243
89.98,187.446
,187.581